{
    "resourceType": "Bundle",
    "identifier": {
        "system": "https://www.ehealth.fgov.be/lab-report/bundle-id",
        "value": "82675078998.6ab0c28e-7858-40ef-ad26-426e696d69fd"
    },
    "type": "document",
    "timestamp": "2023-07-17T14:07:35.995+02:00",
    "entry": [
        {
            "fullUrl": "Composition/Epic.LabReport.CSN.300073953",
            "resource": {
                "resourceType": "Composition",
                "id": "Epic.LabReport.CSN.300073953",
                "meta": {
                    "profile": [
                        "https://www.ehealth.fgov.be/standards/fhir/lab/StructureDefinition/be-laboratory-report-composition"
                    ]
                },
                "text": {
                    "status": "empty",
                    "div": "<div xmlns=\"http://www.w3.org/1999/xhtml\">Composition Epic.LabReport.CSN.300073953</div>"
                },
                "identifier": {
                    "system": "https://www.saintluc.be/standards/fhir/ids/composition",
                    "value": "Epic.LabReport.CSN.300073953"
                },
                "status": "final",
                "type": {
                    "coding": [
                        {
                            "system": "http://loinc.org",
                            "code": "11502-2",
                            "display": "Laboratory report"
                        }
                    ]
                },
                "subject": {
                    "reference": "Patient/eHgBfC-QML7Eca02gmH.pSQ3"
                },
                "date": "2023-07-17T13:38:13+02:00",
                "author": [
                    {
                        "reference": "Practitioner/ewMGoF.HnOC7fCLg3VyTOX9ruC1x1WSKpsLu-7yGzHuY3",
                        "display": "Damien GRUSON, Chef(fe) de département"
                    },
                    {
                        "reference": "Organization/ff-9bqj.Y5xXc9N-kmcnaWQ4"
                    }
                ],
                "title": "Rapport de laboratoire",
                "section": [
                    {
                        "entry": [
                            {
                                "reference": "DiagnosticReport/Epic.LabReport.CSN.300073953"
                            }
                        ]
                    }
                ]
            }
        },
        {
            "fullUrl": "DiagnosticReport/Epic.LabReport.CSN.300073953",
            "resource": {
                "resourceType": "DiagnosticReport",
                "id": "Epic.LabReport.CSN.300073953",
                "meta": {
                    "profile": [
                        "https://www.ehealth.fgov.be/standards/fhir/lab/StructureDefinition/be-laboratory-report"
                    ]
                },
                "identifier": [
                    {
                        "system": "https://www.ehealth.fgov.be/lab-report/diagnostic-report-id",
                        "value": "82675078998.Epic.LabReport.CSN.300073953"
                    }
                ],
                "basedOn": [
                    {
                        "reference": "ServiceRequest/Epic.LabReport.CSN.300073953"
                    }
                ],
                "status": "final",
                "category": [
                    {
                        "coding": [
                            {
                                "system": "http://terminology.hl7.org/CodeSystem/v2-0074",
                                "code": "LAB",
                                "display": "Laboratory"
                            }
                        ]
                    }
                ],
                "code": {
                    "coding": [
                        {
                            "system": "http://loinc.org",
                            "code": "11502-2",
                            "display": "Laboratory report"
                        }
                    ]
                },
                "subject": {
                    "reference": "Patient/eHgBfC-QML7Eca02gmH.pSQ3"
                },
                "issued": "2023-07-17T13:38:13.000+02:00",
                "performer": [
                    {
                        "reference": "Organization/ff-9bqj.Y5xXc9N-kmcnaWQ4"
                    }
                ],
                "resultsInterpreter": [
                    {
                        "reference": "Practitioner/ewMGoF.HnOC7fCLg3VyTOX9ruC1x1WSKpsLu-7yGzHuY3",
                        "display": "Damien GRUSON, Chef(fe) de département"
                    }
                ],
                "specimen": [
                    {
                        "reference": "Specimen/e3P4XtxRdnLptnGa8xqC62A3",
                        "display": "Specimen 23H-198L0001"
                    }
                ],
                "result": [
                    {
                        "reference": "Observation/Epic.ORD.4726371"
                    }
                ],
                "presentedForm": [
                    {
                        "contentType": "application/pdf",
                        "data": "",
                        "size": 84154,
                        "hash": "ULAyYj0MtE+rT1MM2B0npYYK0Yg="
                    }
                ]
            }
        },
        {
            "fullUrl": "Patient/eHgBfC-QML7Eca02gmH.pSQ3",
            "resource": {
                "resourceType": "Patient",
                "id": "eHgBfC-QML7Eca02gmH.pSQ3",
                "meta": {
                    "profile": [
                        "https://www.ehealth.fgov.be/standards/fhir/core/StructureDefinition/be-patient"
                    ]
                },
                "text": {
                    "status": "empty",
                    "div": "<div xmlns=\"http://www.w3.org/1999/xhtml\">Mr Patient4 Prenom2 PATIENT NAME4</div>"
                },
                "identifier": [
                    {
                        "use": "official",
                        "type": {
                            "coding": [
                                {
                                    "system": "http://terminology.hl7.org/CodeSystem/v2-0203",
                                    "code": "SB",
                                    "display": "Social Beneficiary Identifier"
                                }
                            ]
                        },
                        "system": "https://www.ehealth.fgov.be/standards/fhir/core/NamingSystem/ssin",
                        "value": "00010499952"
                    },
                    {
                        "use": "usual",
                        "type": {
                            "coding": [
                                {
                                    "system": "http://terminology.hl7.org/CodeSystem/v2-0203",
                                    "code": "MR",
                                    "display": "Medical record number"
                                }
                            ]
                        },
                        "system": "https://www.saintluc.be/standards/fhir/ids/patient/numadm",
                        "value": "OA7734P"
                    }
                ],
                "active": true,
                "name": [
                    {
                        "use": "official",
                        "text": "Monsieur Patient4 Prenom2 PATIENT NAME4",
                        "family": "PATIENT NAME4",
                        "given": [
                            "Patient4 Prenom2"
                        ],
                        "prefix": [
                            "Mr"
                        ]
                    }
                ],
                "gender": "male",
                "birthDate": "1900-01-04",
                "deceasedBoolean": false,
                "address": [
                    {
                        "use": "home",
                        "line": [
                            "1D AVENUE HIPPOCRATE"
                        ],
                        "city": "WOLUWE-SAINT-LAMBERT",
                        "postalCode": "1200",
                        "country": "BE"
                    }
                ],
                "managingOrganization": {
                    "reference": "Organization/e1WuVW7mIK5sxeEnmD.MVXA3",
                    "display": "Cliniques Universitaires Saint Luc"
                }
            }
        },
        {
            "fullUrl": "ServiceRequest/Epic.LabReport.CSN.300073953",
            "resource": {
                "resourceType": "ServiceRequest",
                "id": "Epic.LabReport.CSN.300073953",
                "status": "active",
                "intent": "order",
                "subject": {
                    "reference": "Patient/eHgBfC-QML7Eca02gmH.pSQ3"
                },
                "authoredOn": "2023-07-17T13:32:22+02:00",
                "requester": {
                    "reference": "Practitioner/e1qyn2AqZhqVF6QlzZhZ1FP.tQ3ukKIHxepgJOmKzn803",
                    "display": "Demet YUKSEL, Chef(fe) de clinique"
                }
            }
        },
        {
            "fullUrl": "Organization/e1WuVW7mIK5sxeEnmD.MVXA3",
            "resource": {
                "resourceType": "Organization",
                "id": "e1WuVW7mIK5sxeEnmD.MVXA3",
                "meta": {
                    "profile": [
                        "https://www.ehealth.fgov.be/standards/fhir/core/StructureDefinition/be-organization"
                    ]
                },
                "text": {
                    "status": "empty",
                    "div": "<div xmlns=\"http://www.w3.org/1999/xhtml\">Cliniques Universitaires Saint Luc</div>"
                },
                "active": true,
                "name": "Cliniques Universitaires Saint Luc",
                "address": [
                    {
                        "line": [
                            "Avenue Hippocrate, 10"
                        ],
                        "city": "Bruxelles",
                        "postalCode": "1200",
                        "country": "Belgique"
                    }
                ]
            }
        },
        {
            "fullUrl": "Observation/Epic.ORD.4726371",
            "resource": {
                "resourceType": "Observation",
                "id": "Epic.ORD.4726371",
                "meta": {
                    "profile": [
                        "https://www.ehealth.fgov.be/standards/fhir/lab/StructureDefinition/be-observation-laboratory"
                    ]
                },
                "text": {
                    "status": "empty",
                    "div": "<div xmlns=\"http://www.w3.org/1999/xhtml\">Hémogramme ( GR, GB, PLT et Formule leucocytaire )</div>"
                },
                "identifier": [
                    {
                        "system": "https://www.saintluc.be/standards/fhir/ids/observation/epic/ord",
                        "value": "4726371"
                    }
                ],
                "status": "final",
                "code": {
                    "coding": [
                        {
                            "system": "http://loinc.org",
                            "code": "57022-6"
                        }
                    ],
                    "text": "Hémogramme ( GR, GB, PLT et Formule leucocytaire )"
                },
                "subject": {
                    "reference": "Patient/eHgBfC-QML7Eca02gmH.pSQ3",
                    "display": "PATIENT NAME4, Patient4 Prenom2"
                },
                "effectiveDateTime": "2023-07-17T11:32:00Z",
                "issued": "2023-07-17T13:38:13.000+02:00",
                "hasMember": [
                    {
                        "reference": "Observation/fDg06G1q37zBf402Xf2THFEj.k6ulbHtc1hXee1VwCQM4",
                        "display": "Component (1): HÉMOGLOBINE (G/DL), EDTA"
                    },
                    {
                        "reference": "Observation/fDg06G1q37zBf402Xf2THFDIDL8TQCf1o7.G0TJpnWJU4",
                        "display": "Component (1): HÉMATOCRITE (%), EDTA"
                    },
                    {
                        "reference": "Observation/fDg06G1q37zBf402Xf2THFNz-.SrPiTINgiZ7G7r5saw4",
                        "display": "Component (1): GLOBULES ROUGES (10E6/µL), EDTA"
                    },
                    {
                        "reference": "Observation/fDg06G1q37zBf402Xf2THFBlKuhHRxNXxQauliNUiBsM4",
                        "display": "Component (1): VOL. GLOB. MOYEN (MCV) (FL), EDTA"
                    },
                    {
                        "reference": "Observation/fDg06G1q37zBf402Xf2THFK0Kcce0sEDr5mxELh2wzEE4",
                        "display": "Component (1): CHARGE MOY. EN HB. (MCH) (PG), EDTA"
                    },
                    {
                        "reference": "Observation/fDg06G1q37zBf402Xf2THFHJa02hpj2q1c3q.obuxpEk4",
                        "display": "Component (1): CONC. MOY. EN HB (MCHC) (G/DL), EDTA"
                    },
                    {
                        "reference": "Observation/fDg06G1q37zBf402Xf2THFHb5RiqGKwU73rWDoY-zxfQ4",
                        "display": "Component (1): GLOBULES BLANCS (10E3/µL), EDTA"
                    },
                    {
                        "reference": "Observation/fDg06G1q37zBf402Xf2THFFDaAIEqjboRW1UCfqeLRaE4",
                        "display": "Component (1): NEUTROPHILES # (10E3/µL), EDTA"
                    },
                    {
                        "reference": "Observation/fDg06G1q37zBf402Xf2THFJUxcLNSqRfkiJXMGrqVx0A4",
                        "display": "Component (1): LYMPHOCYTES # (10E3/µL), EDTA"
                    },
                    {
                        "reference": "Observation/fDg06G1q37zBf402Xf2THFJ8t3HN5B5aYDIpl0WK9uNg4",
                        "display": "Component (1): MONOCYTES # (10E3/µL), EDTA"
                    },
                    {
                        "reference": "Observation/fDg06G1q37zBf402Xf2THFDhoGKwjdGbnlhuopeUCsqk4",
                        "display": "Component (1): EOSINOPHILES # (10E3/µL), EDTA"
                    },
                    {
                        "reference": "Observation/fDg06G1q37zBf402Xf2THFMB8ewfZWRqBfbOZa7IWcIE4",
                        "display": "Component (1): BASOPHILES # (10E3/µL), EDTA"
                    },
                    {
                        "reference": "Observation/fDg06G1q37zBf402Xf2THFOOBw09D80hYFJ1BG4kCoQE4",
                        "display": "Component (1): NEUTROPHILES % (%), EDTA"
                    },
                    {
                        "reference": "Observation/fDg06G1q37zBf402Xf2THFE9D9Q-HaXORSiQernF-Olo4",
                        "display": "Component (1): LYMPHOCYTES % (%), EDTA"
                    },
                    {
                        "reference": "Observation/fDg06G1q37zBf402Xf2THFBdnxWoHwgEgjVMzZrdzBHc4",
                        "display": "Component (1): MONOCYTES % (%), EDTA"
                    },
                    {
                        "reference": "Observation/fDg06G1q37zBf402Xf2THFKYPE75npBJzEhtrOGakiRU4",
                        "display": "Component (1): EOSINOPHILES % (%), EDTA"
                    },
                    {
                        "reference": "Observation/fDg06G1q37zBf402Xf2THFG4C12qXTvz1grkCYeNohmU4",
                        "display": "Component (1): BASOPHILES % (%), EDTA"
                    },
                    {
                        "reference": "Observation/fDg06G1q37zBf402Xf2THFC3tKUFCaUg7Mf8Eovubu5w4",
                        "display": "Component (1): PLAQUETTES (10E3/µL), EDTA"
                    },
                    {
                        "reference": "Observation/fDg06G1q37zBf402Xf2THFJwe2z1HpKO.dV8l4TK0JPM4",
                        "display": "Component (1): RATIO NEUTRO / LYMPH, EDTA"
                    },
                    {
                        "reference": "Observation/fDg06G1q37zBf402Xf2THFF5gYDIMqZmeksUctKutAQo4",
                        "display": "Component (1): HEMNAT TYPE DU PRELEVEMENT"
                    },
                    {
                        "reference": "Observation/fDg06G1q37zBf402Xf2THFEaqgW8dY8ieaezhWJrBuJU4",
                        "display": "Component (1): HEMNAT SOURCE DU PRELEVEMENT"
                    }
                ]
            }
        },
        {
            "fullUrl": "Observation/fDg06G1q37zBf402Xf2THFBdnxWoHwgEgjVMzZrdzBHc4",
            "resource": {
                "resourceType": "Observation",
                "id": "fDg06G1q37zBf402Xf2THFBdnxWoHwgEgjVMzZrdzBHc4",
                "meta": {
                    "profile": [
                        "https://www.ehealth.fgov.be/standards/fhir/lab/StructureDefinition/be-observation-laboratory"
                    ]
                },
                "text": {
                    "status": "empty",
                    "div": "<div xmlns=\"http://www.w3.org/1999/xhtml\">Monocytes % °</div>"
                },
                "status": "final",
                "category": [
                    {
                        "coding": [
                            {
                                "system": "http://terminology.hl7.org/CodeSystem/observation-category",
                                "code": "laboratory",
                                "display": "Laboratory"
                            }
                        ],
                        "text": "Laboratory"
                    }
                ],
                "code": {
                    "coding": [
                        {
                            "system": "http://loinc.org",
                            "code": "26485-3",
                            "display": "Monocytes/100 leucocytes [Fraction de nombres] Sang ; Numérique"
                        }
                    ],
                    "text": "Monocytes % °"
                },
                "subject": {
                    "reference": "Patient/eHgBfC-QML7Eca02gmH.pSQ3",
                    "display": "PATIENT NAME4, Patient4 Prenom2"
                },
                "effectiveDateTime": "2023-07-17T11:32:00Z",
                "issued": "2023-07-17T11:38:13Z",
                "performer": [
                    {
                        "reference": "Practitioner/ewMGoF.HnOC7fCLg3VyTOX9ruC1x1WSKpsLu-7yGzHuY3",
                        "display": "Damien GRUSON, Chef(fe) de département"
                    }
                ],
                "valueQuantity": {
                    "value": 9.8,
                    "unit": "%",
                    "system": "http://unitsofmeasure.org",
                    "code": "%"
                },
                "specimen": {
                    "reference": "Specimen/e3P4XtxRdnLptnGa8xqC62A3",
                    "display": "Specimen 23H-198L0001"
                },
                "referenceRange": [
                    {
                        "low": {
                            "value": 5,
                            "unit": "%",
                            "system": "http://unitsofmeasure.org",
                            "code": "%"
                        },
                        "high": {
                            "value": 10,
                            "unit": "%",
                            "system": "http://unitsofmeasure.org",
                            "code": "%"
                        },
                        "text": "5,0 - 10,0 %"
                    }
                ]
            }
        },
        {
            "fullUrl": "Specimen/e3P4XtxRdnLptnGa8xqC62A3",
            "resource": {
                "resourceType": "Specimen",
                "id": "e3P4XtxRdnLptnGa8xqC62A3",
                "meta": {
                    "profile": [
                        "https://www.ehealth.fgov.be/standards/fhir/lab/StructureDefinition/be-specimen-laboratory"
                    ]
                },
                "text": {
                    "status": "empty",
                    "div": "<div xmlns=\"http://www.w3.org/1999/xhtml\">Sang 23H-198L0001</div>"
                },
                "identifier": [
                    {
                        "system": "https://www.saintluc.be/standards/fhir/ids/specimen/epic/ovs",
                        "value": "23H-198L0001"
                    }
                ],
                "type": {
                    "text": "Sang"
                },
                "subject": {
                    "reference": "Patient/eHgBfC-QML7Eca02gmH.pSQ3",
                    "display": "PATIENT NAME4, Patient4 Prenom2"
                },
                "receivedTime": "2023-07-17T11:33:19Z",
                "collection": {
                    "collectedDateTime": "2023-07-17T11:32:33Z",
                    "method": {
                        "text": "Ponction veineuse"
                    },
                    "bodySite": {
                        "text": "Sang, veineux"
                    }
                }
            }
        },
        {
            "fullUrl": "Practitioner/ewMGoF.HnOC7fCLg3VyTOX9ruC1x1WSKpsLu-7yGzHuY3",
            "resource": {
                "resourceType": "Practitioner",
                "id": "ewMGoF.HnOC7fCLg3VyTOX9ruC1x1WSKpsLu-7yGzHuY3",
                "meta": {
                    "profile": [
                        "https://www.ehealth.fgov.be/standards/fhir/core/StructureDefinition/be-practitioner"
                    ]
                },
                "text": {
                    "status": "empty",
                    "div": "<div xmlns=\"http://www.w3.org/1999/xhtml\">Damien GRUSON</div>"
                },
                "identifier": [
                    {
                        "use": "official",
                        "system": "https://www.ehealth.fgov.be/standards/fhir/core/NamingSystem/nihdi",
                        "value": "68115873"
                    }
                ],
                "active": true,
                "name": [
                    {
                        "use": "official",
                        "family": "GRUSON",
                        "given": [
                            "Damien"
                        ]
                    }
                ],
                "gender": "male",
                "birthDate": "1976-03-29"
            }
        },
        {
            "fullUrl": "Observation/fDg06G1q37zBf402Xf2THFBlKuhHRxNXxQauliNUiBsM4",
            "resource": {
                "resourceType": "Observation",
                "id": "fDg06G1q37zBf402Xf2THFBlKuhHRxNXxQauliNUiBsM4",
                "meta": {
                    "profile": [
                        "https://www.ehealth.fgov.be/standards/fhir/lab/StructureDefinition/be-observation-laboratory"
                    ]
                },
                "text": {
                    "status": "empty",
                    "div": "<div xmlns=\"http://www.w3.org/1999/xhtml\">Vol. glob. moyen (MCV) °</div>"
                },
                "status": "final",
                "category": [
                    {
                        "coding": [
                            {
                                "system": "http://terminology.hl7.org/CodeSystem/observation-category",
                                "code": "laboratory",
                                "display": "Laboratory"
                            }
                        ],
                        "text": "Laboratory"
                    }
                ],
                "code": {
                    "coding": [
                        {
                            "system": "http://loinc.org",
                            "code": "787-2",
                            "display": "Volume globulaire moyen [Volume d'entité] Érythrocytes ; Numérique ; Comptage automate"
                        }
                    ],
                    "text": "Vol. glob. moyen (MCV) °"
                },
                "subject": {
                    "reference": "Patient/eHgBfC-QML7Eca02gmH.pSQ3",
                    "display": "PATIENT NAME4, Patient4 Prenom2"
                },
                "effectiveDateTime": "2023-07-17T11:32:00Z",
                "issued": "2023-07-17T11:38:13Z",
                "performer": [
                    {
                        "reference": "Practitioner/ewMGoF.HnOC7fCLg3VyTOX9ruC1x1WSKpsLu-7yGzHuY3",
                        "display": "Damien GRUSON, Chef(fe) de département"
                    }
                ],
                "valueQuantity": {
                    "value": 89.1,
                    "unit": "fL",
                    "system": "http://unitsofmeasure.org",
                    "code": "fL"
                },
                "specimen": {
                    "reference": "Specimen/e3P4XtxRdnLptnGa8xqC62A3",
                    "display": "Specimen 23H-198L0001"
                },
                "referenceRange": [
                    {
                        "low": {
                            "value": 85,
                            "unit": "fL",
                            "system": "http://unitsofmeasure.org",
                            "code": "fL"
                        },
                        "high": {
                            "value": 95,
                            "unit": "fL",
                            "system": "http://unitsofmeasure.org",
                            "code": "fL"
                        },
                        "text": "85,0 - 95,0 fL"
                    }
                ]
            }
        },
        {
            "fullUrl": "Observation/fDg06G1q37zBf402Xf2THFC3tKUFCaUg7Mf8Eovubu5w4",
            "resource": {
                "resourceType": "Observation",
                "id": "fDg06G1q37zBf402Xf2THFC3tKUFCaUg7Mf8Eovubu5w4",
                "meta": {
                    "profile": [
                        "https://www.ehealth.fgov.be/standards/fhir/lab/StructureDefinition/be-observation-laboratory"
                    ]
                },
                "text": {
                    "status": "empty",
                    "div": "<div xmlns=\"http://www.w3.org/1999/xhtml\">Plaquettes °</div>"
                },
                "status": "final",
                "category": [
                    {
                        "coding": [
                            {
                                "system": "http://terminology.hl7.org/CodeSystem/observation-category",
                                "code": "laboratory",
                                "display": "Laboratory"
                            }
                        ],
                        "text": "Laboratory"
                    }
                ],
                "code": {
                    "coding": [
                        {
                            "system": "http://loinc.org",
                            "code": "777-3",
                            "display": "Plaquettes [Nombre/Volume] Sang ; Numérique ; Comptage automate"
                        }
                    ],
                    "text": "Plaquettes °"
                },
                "subject": {
                    "reference": "Patient/eHgBfC-QML7Eca02gmH.pSQ3",
                    "display": "PATIENT NAME4, Patient4 Prenom2"
                },
                "effectiveDateTime": "2023-07-17T11:32:00Z",
                "issued": "2023-07-17T11:38:13Z",
                "performer": [
                    {
                        "reference": "Practitioner/ewMGoF.HnOC7fCLg3VyTOX9ruC1x1WSKpsLu-7yGzHuY3",
                        "display": "Damien GRUSON, Chef(fe) de département"
                    }
                ],
                "valueQuantity": {
                    "value": 192,
                    "unit": "10³/µL",
                    "system": "http://unitsofmeasure.org",
                    "code": "10*3.uL-1"
                },
                "specimen": {
                    "reference": "Specimen/e3P4XtxRdnLptnGa8xqC62A3",
                    "display": "Specimen 23H-198L0001"
                },
                "referenceRange": [
                    {
                        "low": {
                            "value": 150,
                            "unit": "10³/µL",
                            "system": "http://unitsofmeasure.org",
                            "code": "10*3.uL-1"
                        },
                        "high": {
                            "value": 450,
                            "unit": "10³/µL",
                            "system": "http://unitsofmeasure.org",
                            "code": "10*3.uL-1"
                        },
                        "text": "150 - 450 10³/µL"
                    }
                ]
            }
        },
        {
            "fullUrl": "Observation/fDg06G1q37zBf402Xf2THFDIDL8TQCf1o7.G0TJpnWJU4",
            "resource": {
                "resourceType": "Observation",
                "id": "fDg06G1q37zBf402Xf2THFDIDL8TQCf1o7.G0TJpnWJU4",
                "meta": {
                    "profile": [
                        "https://www.ehealth.fgov.be/standards/fhir/lab/StructureDefinition/be-observation-laboratory"
                    ]
                },
                "text": {
                    "status": "empty",
                    "div": "<div xmlns=\"http://www.w3.org/1999/xhtml\">Hématocrite °</div>"
                },
                "status": "final",
                "category": [
                    {
                        "coding": [
                            {
                                "system": "http://terminology.hl7.org/CodeSystem/observation-category",
                                "code": "laboratory",
                                "display": "Laboratory"
                            }
                        ],
                        "text": "Laboratory"
                    }
                ],
                "code": {
                    "coding": [
                        {
                            "system": "http://loinc.org",
                            "code": "4544-3",
                            "display": "Hématocrite [Fraction volumique] Sang ; Numérique ; Comptage automate"
                        }
                    ],
                    "text": "Hématocrite °"
                },
                "subject": {
                    "reference": "Patient/eHgBfC-QML7Eca02gmH.pSQ3",
                    "display": "PATIENT NAME4, Patient4 Prenom2"
                },
                "effectiveDateTime": "2023-07-17T11:32:00Z",
                "issued": "2023-07-17T11:38:13Z",
                "performer": [
                    {
                        "reference": "Practitioner/ewMGoF.HnOC7fCLg3VyTOX9ruC1x1WSKpsLu-7yGzHuY3",
                        "display": "Damien GRUSON, Chef(fe) de département"
                    }
                ],
                "valueQuantity": {
                    "value": 43,
                    "unit": "%",
                    "system": "http://unitsofmeasure.org",
                    "code": "%"
                },
                "specimen": {
                    "reference": "Specimen/e3P4XtxRdnLptnGa8xqC62A3",
                    "display": "Specimen 23H-198L0001"
                },
                "referenceRange": [
                    {
                        "low": {
                            "value": 38,
                            "unit": "%",
                            "system": "http://unitsofmeasure.org",
                            "code": "%"
                        },
                        "high": {
                            "value": 48,
                            "unit": "%",
                            "system": "http://unitsofmeasure.org",
                            "code": "%"
                        },
                        "text": "38 - 48 %"
                    }
                ]
            }
        },
        {
            "fullUrl": "Observation/fDg06G1q37zBf402Xf2THFDhoGKwjdGbnlhuopeUCsqk4",
            "resource": {
                "resourceType": "Observation",
                "id": "fDg06G1q37zBf402Xf2THFDhoGKwjdGbnlhuopeUCsqk4",
                "meta": {
                    "profile": [
                        "https://www.ehealth.fgov.be/standards/fhir/lab/StructureDefinition/be-observation-laboratory"
                    ]
                },
                "text": {
                    "status": "empty",
                    "div": "<div xmlns=\"http://www.w3.org/1999/xhtml\">Eosinophiles # °</div>"
                },
                "status": "final",
                "category": [
                    {
                        "coding": [
                            {
                                "system": "http://terminology.hl7.org/CodeSystem/observation-category",
                                "code": "laboratory",
                                "display": "Laboratory"
                            }
                        ],
                        "text": "Laboratory"
                    }
                ],
                "code": {
                    "coding": [
                        {
                            "system": "http://loinc.org",
                            "code": "26449-9",
                            "display": "Polynucléaires éosinophiles [Nombre/Volume] Sang ; Numérique"
                        }
                    ],
                    "text": "Eosinophiles # °"
                },
                "subject": {
                    "reference": "Patient/eHgBfC-QML7Eca02gmH.pSQ3",
                    "display": "PATIENT NAME4, Patient4 Prenom2"
                },
                "effectiveDateTime": "2023-07-17T11:32:00Z",
                "issued": "2023-07-17T11:38:13Z",
                "performer": [
                    {
                        "reference": "Practitioner/ewMGoF.HnOC7fCLg3VyTOX9ruC1x1WSKpsLu-7yGzHuY3",
                        "display": "Damien GRUSON, Chef(fe) de département"
                    }
                ],
                "valueQuantity": {
                    "value": 0.14,
                    "unit": "10³/µL",
                    "system": "http://unitsofmeasure.org",
                    "code": "10*3.uL-1"
                },
                "specimen": {
                    "reference": "Specimen/e3P4XtxRdnLptnGa8xqC62A3",
                    "display": "Specimen 23H-198L0001"
                },
                "referenceRange": [
                    {
                        "low": {
                            "value": 0.03,
                            "unit": "10³/µL",
                            "system": "http://unitsofmeasure.org",
                            "code": "10*3.uL-1"
                        },
                        "high": {
                            "value": 0.6,
                            "unit": "10³/µL",
                            "system": "http://unitsofmeasure.org",
                            "code": "10*3.uL-1"
                        },
                        "text": "0,03 - 0,60 10³/µL"
                    }
                ]
            }
        },
        {
            "fullUrl": "Observation/fDg06G1q37zBf402Xf2THFE9D9Q-HaXORSiQernF-Olo4",
            "resource": {
                "resourceType": "Observation",
                "id": "fDg06G1q37zBf402Xf2THFE9D9Q-HaXORSiQernF-Olo4",
                "meta": {
                    "profile": [
                        "https://www.ehealth.fgov.be/standards/fhir/lab/StructureDefinition/be-observation-laboratory"
                    ]
                },
                "text": {
                    "status": "empty",
                    "div": "<div xmlns=\"http://www.w3.org/1999/xhtml\">Lymphocytes % °</div>"
                },
                "status": "final",
                "category": [
                    {
                        "coding": [
                            {
                                "system": "http://terminology.hl7.org/CodeSystem/observation-category",
                                "code": "laboratory",
                                "display": "Laboratory"
                            }
                        ],
                        "text": "Laboratory"
                    }
                ],
                "code": {
                    "coding": [
                        {
                            "system": "http://loinc.org",
                            "code": "26478-8",
                            "display": "Lymphocytes totaux/100 leucocytes [Fraction de nombres] Sang ; Numérique"
                        }
                    ],
                    "text": "Lymphocytes % °"
                },
                "subject": {
                    "reference": "Patient/eHgBfC-QML7Eca02gmH.pSQ3",
                    "display": "PATIENT NAME4, Patient4 Prenom2"
                },
                "effectiveDateTime": "2023-07-17T11:32:00Z",
                "issued": "2023-07-17T11:38:13Z",
                "performer": [
                    {
                        "reference": "Practitioner/ewMGoF.HnOC7fCLg3VyTOX9ruC1x1WSKpsLu-7yGzHuY3",
                        "display": "Damien GRUSON, Chef(fe) de département"
                    }
                ],
                "valueQuantity": {
                    "value": 24.6,
                    "unit": "%",
                    "system": "http://unitsofmeasure.org",
                    "code": "%"
                },
                "specimen": {
                    "reference": "Specimen/e3P4XtxRdnLptnGa8xqC62A3",
                    "display": "Specimen 23H-198L0001"
                },
                "referenceRange": [
                    {
                        "low": {
                            "value": 20,
                            "unit": "%",
                            "system": "http://unitsofmeasure.org",
                            "code": "%"
                        },
                        "high": {
                            "value": 50,
                            "unit": "%",
                            "system": "http://unitsofmeasure.org",
                            "code": "%"
                        },
                        "text": "20,0 - 50,0 %"
                    }
                ]
            }
        },
        {
            "fullUrl": "Observation/fDg06G1q37zBf402Xf2THFEaqgW8dY8ieaezhWJrBuJU4",
            "resource": {
                "resourceType": "Observation",
                "id": "fDg06G1q37zBf402Xf2THFEaqgW8dY8ieaezhWJrBuJU4",
                "meta": {
                    "profile": [
                        "https://www.ehealth.fgov.be/standards/fhir/lab/StructureDefinition/be-observation-laboratory"
                    ]
                },
                "text": {
                    "status": "empty",
                    "div": "<div xmlns=\"http://www.w3.org/1999/xhtml\">Hémogramme : Source du prélèvement</div>"
                },
                "status": "final",
                "category": [
                    {
                        "coding": [
                            {
                                "system": "http://terminology.hl7.org/CodeSystem/observation-category",
                                "code": "laboratory",
                                "display": "Laboratory"
                            }
                        ],
                        "text": "Laboratory"
                    }
                ],
                "code": {
                    "text": "Hémogramme : Source du prélèvement"
                },
                "subject": {
                    "reference": "Patient/eHgBfC-QML7Eca02gmH.pSQ3",
                    "display": "PATIENT NAME4, Patient4 Prenom2"
                },
                "effectiveDateTime": "2023-07-17T11:32:00Z",
                "issued": "2023-07-17T11:38:13Z",
                "performer": [
                    {
                        "reference": "Practitioner/ewMGoF.HnOC7fCLg3VyTOX9ruC1x1WSKpsLu-7yGzHuY3",
                        "display": "Damien GRUSON, Chef(fe) de département"
                    }
                ],
                "valueString": "Sang, veineux",
                "specimen": {
                    "reference": "Specimen/e3P4XtxRdnLptnGa8xqC62A3",
                    "display": "Specimen 23H-198L0001"
                }
            }
        },
        {
            "fullUrl": "Observation/fDg06G1q37zBf402Xf2THFEj.k6ulbHtc1hXee1VwCQM4",
            "resource": {
                "resourceType": "Observation",
                "id": "fDg06G1q37zBf402Xf2THFEj.k6ulbHtc1hXee1VwCQM4",
                "meta": {
                    "profile": [
                        "https://www.ehealth.fgov.be/standards/fhir/lab/StructureDefinition/be-observation-laboratory"
                    ]
                },
                "text": {
                    "status": "empty",
                    "div": "<div xmlns=\"http://www.w3.org/1999/xhtml\">Hémoglobine °</div>"
                },
                "status": "final",
                "category": [
                    {
                        "coding": [
                            {
                                "system": "http://terminology.hl7.org/CodeSystem/observation-category",
                                "code": "laboratory",
                                "display": "Laboratory"
                            }
                        ],
                        "text": "Laboratory"
                    }
                ],
                "code": {
                    "coding": [
                        {
                            "system": "http://loinc.org",
                            "code": "718-7",
                            "display": "Hémoglobine [Masse/Volume] Sang ; Numérique"
                        }
                    ],
                    "text": "Hémoglobine °"
                },
                "subject": {
                    "reference": "Patient/eHgBfC-QML7Eca02gmH.pSQ3",
                    "display": "PATIENT NAME4, Patient4 Prenom2"
                },
                "effectiveDateTime": "2023-07-17T11:32:00Z",
                "issued": "2023-07-17T11:38:13Z",
                "performer": [
                    {
                        "reference": "Practitioner/ewMGoF.HnOC7fCLg3VyTOX9ruC1x1WSKpsLu-7yGzHuY3",
                        "display": "Damien GRUSON, Chef(fe) de département"
                    }
                ],
                "valueQuantity": {
                    "value": 14.7,
                    "unit": "g/dL",
                    "system": "http://unitsofmeasure.org",
                    "code": "g/dL"
                },
                "specimen": {
                    "reference": "Specimen/e3P4XtxRdnLptnGa8xqC62A3",
                    "display": "Specimen 23H-198L0001"
                },
                "referenceRange": [
                    {
                        "low": {
                            "value": 13.3,
                            "unit": "g/dL",
                            "system": "http://unitsofmeasure.org",
                            "code": "g/dL"
                        },
                        "high": {
                            "value": 16.7,
                            "unit": "g/dL",
                            "system": "http://unitsofmeasure.org",
                            "code": "g/dL"
                        },
                        "text": "13,3 - 16,7 g/dL"
                    }
                ]
            }
        },
        {
            "fullUrl": "Observation/fDg06G1q37zBf402Xf2THFF5gYDIMqZmeksUctKutAQo4",
            "resource": {
                "resourceType": "Observation",
                "id": "fDg06G1q37zBf402Xf2THFF5gYDIMqZmeksUctKutAQo4",
                "meta": {
                    "profile": [
                        "https://www.ehealth.fgov.be/standards/fhir/lab/StructureDefinition/be-observation-laboratory"
                    ]
                },
                "text": {
                    "status": "empty",
                    "div": "<div xmlns=\"http://www.w3.org/1999/xhtml\">Hémogramme : Type du prélèvement</div>"
                },
                "status": "final",
                "category": [
                    {
                        "coding": [
                            {
                                "system": "http://terminology.hl7.org/CodeSystem/observation-category",
                                "code": "laboratory",
                                "display": "Laboratory"
                            }
                        ],
                        "text": "Laboratory"
                    }
                ],
                "code": {
                    "text": "Hémogramme : Type du prélèvement"
                },
                "subject": {
                    "reference": "Patient/eHgBfC-QML7Eca02gmH.pSQ3",
                    "display": "PATIENT NAME4, Patient4 Prenom2"
                },
                "effectiveDateTime": "2023-07-17T11:32:00Z",
                "issued": "2023-07-17T11:38:13Z",
                "performer": [
                    {
                        "reference": "Practitioner/ewMGoF.HnOC7fCLg3VyTOX9ruC1x1WSKpsLu-7yGzHuY3",
                        "display": "Damien GRUSON, Chef(fe) de département"
                    }
                ],
                "valueString": "Sang",
                "specimen": {
                    "reference": "Specimen/e3P4XtxRdnLptnGa8xqC62A3",
                    "display": "Specimen 23H-198L0001"
                }
            }
        },
        {
            "fullUrl": "Observation/fDg06G1q37zBf402Xf2THFFDaAIEqjboRW1UCfqeLRaE4",
            "resource": {
                "resourceType": "Observation",
                "id": "fDg06G1q37zBf402Xf2THFFDaAIEqjboRW1UCfqeLRaE4",
                "meta": {
                    "profile": [
                        "https://www.ehealth.fgov.be/standards/fhir/lab/StructureDefinition/be-observation-laboratory"
                    ]
                },
                "text": {
                    "status": "empty",
                    "div": "<div xmlns=\"http://www.w3.org/1999/xhtml\">Neutrophiles # °</div>"
                },
                "status": "final",
                "category": [
                    {
                        "coding": [
                            {
                                "system": "http://terminology.hl7.org/CodeSystem/observation-category",
                                "code": "laboratory",
                                "display": "Laboratory"
                            }
                        ],
                        "text": "Laboratory"
                    }
                ],
                "code": {
                    "coding": [
                        {
                            "system": "http://loinc.org",
                            "code": "26499-4",
                            "display": "Polynucléaires neutrophiles [Nombre/Volume] Sang ; Numérique"
                        }
                    ],
                    "text": "Neutrophiles # °"
                },
                "subject": {
                    "reference": "Patient/eHgBfC-QML7Eca02gmH.pSQ3",
                    "display": "PATIENT NAME4, Patient4 Prenom2"
                },
                "effectiveDateTime": "2023-07-17T11:32:00Z",
                "issued": "2023-07-17T11:38:13Z",
                "performer": [
                    {
                        "reference": "Practitioner/ewMGoF.HnOC7fCLg3VyTOX9ruC1x1WSKpsLu-7yGzHuY3",
                        "display": "Damien GRUSON, Chef(fe) de département"
                    }
                ],
                "valueQuantity": {
                    "value": 3.50,
                    "unit": "10³/µL",
                    "system": "http://unitsofmeasure.org",
                    "code": "10*3.uL-1"
                },
                "specimen": {
                    "reference": "Specimen/e3P4XtxRdnLptnGa8xqC62A3",
                    "display": "Specimen 23H-198L0001"
                },
                "referenceRange": [
                    {
                        "low": {
                            "value": 1.6,
                            "unit": "10³/µL",
                            "system": "http://unitsofmeasure.org",
                            "code": "10*3.uL-1"
                        },
                        "high": {
                            "value": 7,
                            "unit": "10³/µL",
                            "system": "http://unitsofmeasure.org",
                            "code": "10*3.uL-1"
                        },
                        "text": "1,60 - 7,00 10³/µL"
                    }
                ]
            }
        },
        {
            "fullUrl": "Observation/fDg06G1q37zBf402Xf2THFG4C12qXTvz1grkCYeNohmU4",
            "resource": {
                "resourceType": "Observation",
                "id": "fDg06G1q37zBf402Xf2THFG4C12qXTvz1grkCYeNohmU4",
                "meta": {
                    "profile": [
                        "https://www.ehealth.fgov.be/standards/fhir/lab/StructureDefinition/be-observation-laboratory"
                    ]
                },
                "text": {
                    "status": "empty",
                    "div": "<div xmlns=\"http://www.w3.org/1999/xhtml\">Basophiles % °</div>"
                },
                "status": "final",
                "category": [
                    {
                        "coding": [
                            {
                                "system": "http://terminology.hl7.org/CodeSystem/observation-category",
                                "code": "laboratory",
                                "display": "Laboratory"
                            }
                        ],
                        "text": "Laboratory"
                    }
                ],
                "code": {
                    "coding": [
                        {
                            "system": "http://loinc.org",
                            "code": "30180-4",
                            "display": "Polynucléaires basophiles/100 leucocytes [Fraction de nombres] Sang ; Numérique"
                        }
                    ],
                    "text": "Basophiles % °"
                },
                "subject": {
                    "reference": "Patient/eHgBfC-QML7Eca02gmH.pSQ3",
                    "display": "PATIENT NAME4, Patient4 Prenom2"
                },
                "effectiveDateTime": "2023-07-17T11:32:00Z",
                "issued": "2023-07-17T11:38:13Z",
                "performer": [
                    {
                        "reference": "Practitioner/ewMGoF.HnOC7fCLg3VyTOX9ruC1x1WSKpsLu-7yGzHuY3",
                        "display": "Damien GRUSON, Chef(fe) de département"
                    }
                ],
                "valueQuantity": {
                    "value": 0.5,
                    "unit": "%",
                    "system": "http://unitsofmeasure.org",
                    "code": "%"
                },
                "specimen": {
                    "reference": "Specimen/e3P4XtxRdnLptnGa8xqC62A3",
                    "display": "Specimen 23H-198L0001"
                },
                "referenceRange": [
                    {
                        "low": {
                            "value": 0.1,
                            "unit": "%",
                            "system": "http://unitsofmeasure.org",
                            "code": "%"
                        },
                        "high": {
                            "value": 2,
                            "unit": "%",
                            "system": "http://unitsofmeasure.org",
                            "code": "%"
                        },
                        "text": "0,1 - 2,0 %"
                    }
                ]
            }
        },
        {
            "fullUrl": "Observation/fDg06G1q37zBf402Xf2THFHJa02hpj2q1c3q.obuxpEk4",
            "resource": {
                "resourceType": "Observation",
                "id": "fDg06G1q37zBf402Xf2THFHJa02hpj2q1c3q.obuxpEk4",
                "meta": {
                    "profile": [
                        "https://www.ehealth.fgov.be/standards/fhir/lab/StructureDefinition/be-observation-laboratory"
                    ]
                },
                "text": {
                    "status": "empty",
                    "div": "<div xmlns=\"http://www.w3.org/1999/xhtml\">Conc. moy. en Hb (MCHC) °</div>"
                },
                "status": "final",
                "category": [
                    {
                        "coding": [
                            {
                                "system": "http://terminology.hl7.org/CodeSystem/observation-category",
                                "code": "laboratory",
                                "display": "Laboratory"
                            }
                        ],
                        "text": "Laboratory"
                    }
                ],
                "code": {
                    "coding": [
                        {
                            "system": "http://loinc.org",
                            "code": "786-4",
                            "display": "Concentration corpusculaire moyenne en hémoglobine [Masse/Volume] Érythrocytes ; Numérique ; Comptage automate"
                        }
                    ],
                    "text": "Conc. moy. en Hb (MCHC) °"
                },
                "subject": {
                    "reference": "Patient/eHgBfC-QML7Eca02gmH.pSQ3",
                    "display": "PATIENT NAME4, Patient4 Prenom2"
                },
                "effectiveDateTime": "2023-07-17T11:32:00Z",
                "issued": "2023-07-17T11:38:13Z",
                "performer": [
                    {
                        "reference": "Practitioner/ewMGoF.HnOC7fCLg3VyTOX9ruC1x1WSKpsLu-7yGzHuY3",
                        "display": "Damien GRUSON, Chef(fe) de département"
                    }
                ],
                "valueQuantity": {
                    "value": 34.5,
                    "unit": "g/dL",
                    "system": "http://unitsofmeasure.org",
                    "code": "g/dL"
                },
                "specimen": {
                    "reference": "Specimen/e3P4XtxRdnLptnGa8xqC62A3",
                    "display": "Specimen 23H-198L0001"
                },
                "referenceRange": [
                    {
                        "low": {
                            "value": 32,
                            "unit": "g/dL",
                            "system": "http://unitsofmeasure.org",
                            "code": "g/dL"
                        },
                        "high": {
                            "value": 36,
                            "unit": "g/dL",
                            "system": "http://unitsofmeasure.org",
                            "code": "g/dL"
                        },
                        "text": "32,0 - 36,0 g/dL"
                    }
                ]
            }
        },
        {
            "fullUrl": "Observation/fDg06G1q37zBf402Xf2THFHb5RiqGKwU73rWDoY-zxfQ4",
            "resource": {
                "resourceType": "Observation",
                "id": "fDg06G1q37zBf402Xf2THFHb5RiqGKwU73rWDoY-zxfQ4",
                "meta": {
                    "profile": [
                        "https://www.ehealth.fgov.be/standards/fhir/lab/StructureDefinition/be-observation-laboratory"
                    ]
                },
                "text": {
                    "status": "empty",
                    "div": "<div xmlns=\"http://www.w3.org/1999/xhtml\">Globules blancs °</div>"
                },
                "status": "final",
                "category": [
                    {
                        "coding": [
                            {
                                "system": "http://terminology.hl7.org/CodeSystem/observation-category",
                                "code": "laboratory",
                                "display": "Laboratory"
                            }
                        ],
                        "text": "Laboratory"
                    }
                ],
                "code": {
                    "coding": [
                        {
                            "system": "http://loinc.org",
                            "code": "6690-2",
                            "display": "Leucocytes [Nombre/Volume] Sang ; Numérique ; Comptage automate"
                        }
                    ],
                    "text": "Globules blancs °"
                },
                "subject": {
                    "reference": "Patient/eHgBfC-QML7Eca02gmH.pSQ3",
                    "display": "PATIENT NAME4, Patient4 Prenom2"
                },
                "effectiveDateTime": "2023-07-17T11:32:00Z",
                "issued": "2023-07-17T11:38:13Z",
                "performer": [
                    {
                        "reference": "Practitioner/ewMGoF.HnOC7fCLg3VyTOX9ruC1x1WSKpsLu-7yGzHuY3",
                        "display": "Damien GRUSON, Chef(fe) de département"
                    }
                ],
                "valueQuantity": {
                    "value": 5.62,
                    "unit": "10³/µL",
                    "system": "http://unitsofmeasure.org",
                    "code": "10*3.uL-1"
                },
                "specimen": {
                    "reference": "Specimen/e3P4XtxRdnLptnGa8xqC62A3",
                    "display": "Specimen 23H-198L0001"
                },
                "referenceRange": [
                    {
                        "low": {
                            "value": 4,
                            "unit": "10³/µL",
                            "system": "http://unitsofmeasure.org",
                            "code": "10*3.uL-1"
                        },
                        "high": {
                            "value": 10,
                            "unit": "10³/µL",
                            "system": "http://unitsofmeasure.org",
                            "code": "10*3.uL-1"
                        },
                        "text": "4,00 - 10,00 10³/µL"
                    }
                ]
            }
        },
        {
            "fullUrl": "Observation/fDg06G1q37zBf402Xf2THFJ8t3HN5B5aYDIpl0WK9uNg4",
            "resource": {
                "resourceType": "Observation",
                "id": "fDg06G1q37zBf402Xf2THFJ8t3HN5B5aYDIpl0WK9uNg4",
                "meta": {
                    "profile": [
                        "https://www.ehealth.fgov.be/standards/fhir/lab/StructureDefinition/be-observation-laboratory"
                    ]
                },
                "text": {
                    "status": "empty",
                    "div": "<div xmlns=\"http://www.w3.org/1999/xhtml\">Monocytes # °</div>"
                },
                "status": "final",
                "category": [
                    {
                        "coding": [
                            {
                                "system": "http://terminology.hl7.org/CodeSystem/observation-category",
                                "code": "laboratory",
                                "display": "Laboratory"
                            }
                        ],
                        "text": "Laboratory"
                    }
                ],
                "code": {
                    "coding": [
                        {
                            "system": "http://loinc.org",
                            "code": "26484-6",
                            "display": "Monocytes [Nombre/Volume] Sang ; Numérique"
                        }
                    ],
                    "text": "Monocytes # °"
                },
                "subject": {
                    "reference": "Patient/eHgBfC-QML7Eca02gmH.pSQ3",
                    "display": "PATIENT NAME4, Patient4 Prenom2"
                },
                "effectiveDateTime": "2023-07-17T11:32:00Z",
                "issued": "2023-07-17T11:38:13Z",
                "performer": [
                    {
                        "reference": "Practitioner/ewMGoF.HnOC7fCLg3VyTOX9ruC1x1WSKpsLu-7yGzHuY3",
                        "display": "Damien GRUSON, Chef(fe) de département"
                    }
                ],
                "valueQuantity": {
                    "value": 0.55,
                    "unit": "10³/µL",
                    "system": "http://unitsofmeasure.org",
                    "code": "10*3.uL-1"
                },
                "specimen": {
                    "reference": "Specimen/e3P4XtxRdnLptnGa8xqC62A3",
                    "display": "Specimen 23H-198L0001"
                },
                "referenceRange": [
                    {
                        "low": {
                            "value": 0.2,
                            "unit": "10³/µL",
                            "system": "http://unitsofmeasure.org",
                            "code": "10*3.uL-1"
                        },
                        "high": {
                            "value": 1,
                            "unit": "10³/µL",
                            "system": "http://unitsofmeasure.org",
                            "code": "10*3.uL-1"
                        },
                        "text": "0,20 - 1,00 10³/µL"
                    }
                ]
            }
        },
        {
            "fullUrl": "Observation/fDg06G1q37zBf402Xf2THFJUxcLNSqRfkiJXMGrqVx0A4",
            "resource": {
                "resourceType": "Observation",
                "id": "fDg06G1q37zBf402Xf2THFJUxcLNSqRfkiJXMGrqVx0A4",
                "meta": {
                    "profile": [
                        "https://www.ehealth.fgov.be/standards/fhir/lab/StructureDefinition/be-observation-laboratory"
                    ]
                },
                "text": {
                    "status": "empty",
                    "div": "<div xmlns=\"http://www.w3.org/1999/xhtml\">Lymphocytes # °</div>"
                },
                "status": "final",
                "category": [
                    {
                        "coding": [
                            {
                                "system": "http://terminology.hl7.org/CodeSystem/observation-category",
                                "code": "laboratory",
                                "display": "Laboratory"
                            }
                        ],
                        "text": "Laboratory"
                    }
                ],
                "code": {
                    "coding": [
                        {
                            "system": "http://loinc.org",
                            "code": "731-0",
                            "display": "Lymphocytes totaux [Nombre/Volume] Sang ; Numérique ; Comptage automate"
                        }
                    ],
                    "text": "Lymphocytes # °"
                },
                "subject": {
                    "reference": "Patient/eHgBfC-QML7Eca02gmH.pSQ3",
                    "display": "PATIENT NAME4, Patient4 Prenom2"
                },
                "effectiveDateTime": "2023-07-17T11:32:00Z",
                "issued": "2023-07-17T11:38:13Z",
                "performer": [
                    {
                        "reference": "Practitioner/ewMGoF.HnOC7fCLg3VyTOX9ruC1x1WSKpsLu-7yGzHuY3",
                        "display": "Damien GRUSON, Chef(fe) de département"
                    }
                ],
                "valueQuantity": {
                    "value": 1.38,
                    "unit": "10³/µL",
                    "system": "http://unitsofmeasure.org",
                    "code": "10*3.uL-1"
                },
                "specimen": {
                    "reference": "Specimen/e3P4XtxRdnLptnGa8xqC62A3",
                    "display": "Specimen 23H-198L0001"
                },
                "referenceRange": [
                    {
                        "low": {
                            "value": 0.8,
                            "unit": "10³/µL",
                            "system": "http://unitsofmeasure.org",
                            "code": "10*3.uL-1"
                        },
                        "high": {
                            "value": 5,
                            "unit": "10³/µL",
                            "system": "http://unitsofmeasure.org",
                            "code": "10*3.uL-1"
                        },
                        "text": "0,80 - 5,00 10³/µL"
                    }
                ]
            }
        },
        {
            "fullUrl": "Observation/fDg06G1q37zBf402Xf2THFJwe2z1HpKO.dV8l4TK0JPM4",
            "resource": {
                "resourceType": "Observation",
                "id": "fDg06G1q37zBf402Xf2THFJwe2z1HpKO.dV8l4TK0JPM4",
                "meta": {
                    "profile": [
                        "https://www.ehealth.fgov.be/standards/fhir/lab/StructureDefinition/be-observation-laboratory"
                    ]
                },
                "text": {
                    "status": "empty",
                    "div": "<div xmlns=\"http://www.w3.org/1999/xhtml\">Ratio neutro / lympho °</div>"
                },
                "status": "final",
                "category": [
                    {
                        "coding": [
                            {
                                "system": "http://terminology.hl7.org/CodeSystem/observation-category",
                                "code": "laboratory",
                                "display": "Laboratory"
                            }
                        ],
                        "text": "Laboratory"
                    }
                ],
                "code": {
                    "coding": [
                        {
                            "system": "http://loinc.org",
                            "code": "770-8",
                            "display": "Polynucléaires neutrophiles/100 leucocytes [Fraction de nombres] Sang ; Numérique ; Comptage automate"
                        }
                    ],
                    "text": "Ratio neutro / lympho °"
                },
                "subject": {
                    "reference": "Patient/eHgBfC-QML7Eca02gmH.pSQ3",
                    "display": "PATIENT NAME4, Patient4 Prenom2"
                },
                "effectiveDateTime": "2023-07-17T11:32:00Z",
                "issued": "2023-07-17T11:38:13Z",
                "performer": [
                    {
                        "reference": "Practitioner/ewMGoF.HnOC7fCLg3VyTOX9ruC1x1WSKpsLu-7yGzHuY3",
                        "display": "Damien GRUSON, Chef(fe) de département" 
                    }
                ],
                "valueQuantity": {
                    "value": 2.54,
                    "system": "http://unitsofmeasure.org",
                    "code": "{}"
                },
                "specimen": {
                    "reference": "Specimen/e3P4XtxRdnLptnGa8xqC62A3",
                    "display": "Specimen 23H-198L0001"
                },
                "referenceRange": [
                    {
                        "low": {
                            "value": 0.78,
                            "system": "http://unitsofmeasure.org",
                            "code": "{}"
                        },
                        "high": {
                            "value": 3.53,
                            "system": "http://unitsofmeasure.org",
                            "code": "{}"
                        },
                        "text": "0,78 - 3,53"
                    }
                ]
            }
        },
        {
            "fullUrl": "Observation/fDg06G1q37zBf402Xf2THFK0Kcce0sEDr5mxELh2wzEE4",
            "resource": {
                "resourceType": "Observation",
                "id": "fDg06G1q37zBf402Xf2THFK0Kcce0sEDr5mxELh2wzEE4",
                "meta": {
                    "profile": [
                        "https://www.ehealth.fgov.be/standards/fhir/lab/StructureDefinition/be-observation-laboratory"
                    ]
                },
                "text": {
                    "status": "empty",
                    "div": "<div xmlns=\"http://www.w3.org/1999/xhtml\">Charge moy. en Hb. (MCH) °</div>"
                },
                "status": "final",
                "category": [
                    {
                        "coding": [
                            {
                                "system": "http://terminology.hl7.org/CodeSystem/observation-category",
                                "code": "laboratory",
                                "display": "Laboratory"
                            }
                        ],
                        "text": "Laboratory"
                    }
                ],
                "code": {
                    "coding": [
                        {
                            "system": "http://loinc.org",
                            "code": "785-6",
                            "display": "Teneur corpusculaire moyenne en hémoglobine [Masse d'entité] Érythrocytes ; Numérique ; Comptage automate"
                        }
                    ],
                    "text": "Charge moy. en Hb. (MCH) °"
                },
                "subject": {
                    "reference": "Patient/eHgBfC-QML7Eca02gmH.pSQ3",
                    "display": "PATIENT NAME4, Patient4 Prenom2"
                },
                "effectiveDateTime": "2023-07-17T11:32:00Z",
                "issued": "2023-07-17T11:38:13Z",
                "performer": [
                    {
                        "reference": "Practitioner/ewMGoF.HnOC7fCLg3VyTOX9ruC1x1WSKpsLu-7yGzHuY3",
                        "display": "Damien GRUSON, Chef(fe) de département"
                    }
                ],
                "valueQuantity": {
                    "value": 30.8,
                    "unit": "pg",
                    "system": "http://unitsofmeasure.org",
                    "code": "pg"
                },
                "specimen": {
                    "reference": "Specimen/e3P4XtxRdnLptnGa8xqC62A3",
                    "display": "Specimen 23H-198L0001"
                },
                "referenceRange": [
                    {
                        "low": {
                            "value": 28,
                            "unit": "pg",
                            "system": "http://unitsofmeasure.org",
                            "code": "pg"
                        },
                        "high": {
                            "value": 32,
                            "unit": "pg",
                            "system": "http://unitsofmeasure.org",
                            "code": "pg"
                        },
                        "text": "28,0 - 32,0 pg"
                    }
                ]
            }
        },
        {
            "fullUrl": "Observation/fDg06G1q37zBf402Xf2THFKYPE75npBJzEhtrOGakiRU4",
            "resource": {
                "resourceType": "Observation",
                "id": "fDg06G1q37zBf402Xf2THFKYPE75npBJzEhtrOGakiRU4",
                "meta": {
                    "profile": [
                        "https://www.ehealth.fgov.be/standards/fhir/lab/StructureDefinition/be-observation-laboratory"
                    ]
                },
                "text": {
                    "status": "empty",
                    "div": "<div xmlns=\"http://www.w3.org/1999/xhtml\">Eosinophiles % °</div>"
                },
                "status": "final",
                "category": [
                    {
                        "coding": [
                            {
                                "system": "http://terminology.hl7.org/CodeSystem/observation-category",
                                "code": "laboratory",
                                "display": "Laboratory"
                            }
                        ],
                        "text": "Laboratory"
                    }
                ],
                "code": {
                    "coding": [
                        {
                            "system": "http://loinc.org",
                            "code": "26450-7",
                            "display": "Polynucléaires éosinophiles/100 leucocytes [Fraction de nombres] Sang ; Numérique"
                        }
                    ],
                    "text": "Eosinophiles % °"
                },
                "subject": {
                    "reference": "Patient/eHgBfC-QML7Eca02gmH.pSQ3",
                    "display": "PATIENT NAME4, Patient4 Prenom2"
                },
                "effectiveDateTime": "2023-07-17T11:32:00Z",
                "issued": "2023-07-17T11:38:13Z",
                "performer": [
                    {
                        "reference": "Practitioner/ewMGoF.HnOC7fCLg3VyTOX9ruC1x1WSKpsLu-7yGzHuY3",
                        "display": "Damien GRUSON, Chef(fe) de département"
                    }
                ],
                "valueQuantity": {
                    "value": 2.5,
                    "unit": "%",
                    "system": "http://unitsofmeasure.org",
                    "code": "%"
                },
                "specimen": {
                    "reference": "Specimen/e3P4XtxRdnLptnGa8xqC62A3",
                    "display": "Specimen 23H-198L0001"
                },
                "referenceRange": [
                    {
                        "low": {
                            "value": 0.5,
                            "unit": "%",
                            "system": "http://unitsofmeasure.org",
                            "code": "%"
                        },
                        "high": {
                            "value": 6,
                            "unit": "%",
                            "system": "http://unitsofmeasure.org",
                            "code": "%"
                        },
                        "text": "0,5 - 6,0 %"
                    }
                ]
            }
        },
        {
            "fullUrl": "Observation/fDg06G1q37zBf402Xf2THFMB8ewfZWRqBfbOZa7IWcIE4",
            "resource": {
                "resourceType": "Observation",
                "id": "fDg06G1q37zBf402Xf2THFMB8ewfZWRqBfbOZa7IWcIE4",
                "meta": {
                    "profile": [
                        "https://www.ehealth.fgov.be/standards/fhir/lab/StructureDefinition/be-observation-laboratory"
                    ]
                },
                "text": {
                    "status": "empty",
                    "div": "<div xmlns=\"http://www.w3.org/1999/xhtml\">Basophiles # °</div>"
                },
                "status": "final",
                "category": [
                    {
                        "coding": [
                            {
                                "system": "http://terminology.hl7.org/CodeSystem/observation-category",
                                "code": "laboratory",
                                "display": "Laboratory"
                            }
                        ],
                        "text": "Laboratory"
                    }
                ],
                "code": {
                    "coding": [
                        {
                            "system": "http://loinc.org",
                            "code": "26444-0",
                            "display": "Polynucléaires basophiles [Nombre/Volume] Sang ; Numérique"
                        }
                    ],
                    "text": "Basophiles # °"
                },
                "subject": {
                    "reference": "Patient/eHgBfC-QML7Eca02gmH.pSQ3",
                    "display": "PATIENT NAME4, Patient4 Prenom2"
                },
                "effectiveDateTime": "2023-07-17T11:32:00Z",
                "issued": "2023-07-17T11:38:13Z",
                "performer": [
                    {
                        "reference": "Practitioner/ewMGoF.HnOC7fCLg3VyTOX9ruC1x1WSKpsLu-7yGzHuY3",
                        "display": "Damien GRUSON, Chef(fe) de département"
                    }
                ],
                "valueQuantity": {
                    "value": 0.03,
                    "unit": "10³/µL",
                    "system": "http://unitsofmeasure.org",
                    "code": "10*3.uL-1"
                },
                "specimen": {
                    "reference": "Specimen/e3P4XtxRdnLptnGa8xqC62A3",
                    "display": "Specimen 23H-198L0001"
                },
                "referenceRange": [
                    {
                        "text": "<=0,20"
                    }
                ]
            }
        },
        {
            "fullUrl": "Observation/fDg06G1q37zBf402Xf2THFNz-.SrPiTINgiZ7G7r5saw4",
            "resource": {
                "resourceType": "Observation",
                "id": "fDg06G1q37zBf402Xf2THFNz-.SrPiTINgiZ7G7r5saw4",
                "meta": {
                    "profile": [
                        "https://www.ehealth.fgov.be/standards/fhir/lab/StructureDefinition/be-observation-laboratory"
                    ]
                },
                "text": {
                    "status": "empty",
                    "div": "<div xmlns=\"http://www.w3.org/1999/xhtml\">Globules rouges °</div>"
                },
                "status": "final",
                "category": [
                    {
                        "coding": [
                            {
                                "system": "http://terminology.hl7.org/CodeSystem/observation-category",
                                "code": "laboratory",
                                "display": "Laboratory"
                            }
                        ],
                        "text": "Laboratory"
                    }
                ],
                "code": {
                    "coding": [
                        {
                            "system": "http://loinc.org",
                            "code": "789-8",
                            "display": "Érythrocytes [Nombre/Volume] Sang ; Numérique ; Comptage automate"
                        }
                    ],
                    "text": "Globules rouges °"
                },
                "subject": {
                    "reference": "Patient/eHgBfC-QML7Eca02gmH.pSQ3",
                    "display": "PATIENT NAME4, Patient4 Prenom2"
                },
                "effectiveDateTime": "2023-07-17T11:32:00Z",
                "issued": "2023-07-17T11:38:13Z",
                "performer": [
                    {
                        "reference": "Practitioner/ewMGoF.HnOC7fCLg3VyTOX9ruC1x1WSKpsLu-7yGzHuY3",
                        "display": "Damien GRUSON, Chef(fe) de département"
                    }
                ],
                "valueQuantity": {
                    "value": 4.78,
                    "unit": "10e6/µL",
                    "system": "http://unitsofmeasure.org",
                    "code": "10*6.uL-1"
                },
                "specimen": {
                    "reference": "Specimen/e3P4XtxRdnLptnGa8xqC62A3",
                    "display": "Specimen 23H-198L0001"
                },
                "referenceRange": [
                    {
                        "low": {
                            "value": 4,
                            "unit": "10e6/µL",
                            "system": "http://unitsofmeasure.org",
                            "code": "10*6.uL-1"
                        },
                        "high": {
                            "value": 6,
                            "unit": "10e6/µL",
                            "system": "http://unitsofmeasure.org",
                            "code": "10*6.uL-1"
                        },
                        "text": "4,00 - 6,00 10e6/µL"
                    }
                ]
            }
        },
        {
            "fullUrl": "Observation/fDg06G1q37zBf402Xf2THFOOBw09D80hYFJ1BG4kCoQE4",
            "resource": {
                "resourceType": "Observation",
                "id": "fDg06G1q37zBf402Xf2THFOOBw09D80hYFJ1BG4kCoQE4",
                "meta": {
                    "profile": [
                        "https://www.ehealth.fgov.be/standards/fhir/lab/StructureDefinition/be-observation-laboratory"
                    ]
                },
                "text": {
                    "status": "empty",
                    "div": "<div xmlns=\"http://www.w3.org/1999/xhtml\">Neutrophiles % °</div>"
                },
                "status": "final",
                "category": [
                    {
                        "coding": [
                            {
                                "system": "http://terminology.hl7.org/CodeSystem/observation-category",
                                "code": "laboratory",
                                "display": "Laboratory"
                            }
                        ],
                        "text": "Laboratory"
                    }
                ],
                "code": {
                    "coding": [
                        {
                            "system": "http://loinc.org",
                            "code": "26511-6",
                            "display": "Polynucléaires neutrophiles/100 leucocytes [Fraction de nombres] Sang ; Numérique"
                        }
                    ],
                    "text": "Neutrophiles % °"
                },
                "subject": {
                    "reference": "Patient/eHgBfC-QML7Eca02gmH.pSQ3",
                    "display": "PATIENT NAME4, Patient4 Prenom2"
                },
                "effectiveDateTime": "2023-07-17T11:32:00Z",
                "issued": "2023-07-17T11:38:13Z",
                "performer": [
                    {
                        "reference": "Practitioner/ewMGoF.HnOC7fCLg3VyTOX9ruC1x1WSKpsLu-7yGzHuY3",
                        "display": "Damien GRUSON, Chef(fe) de département"
                    }
                ],
                "valueQuantity": {
                    "value": 62.2,
                    "unit": "%",
                    "system": "http://unitsofmeasure.org",
                    "code": "%"
                },
                "specimen": {
                    "reference": "Specimen/e3P4XtxRdnLptnGa8xqC62A3",
                    "display": "Specimen 23H-198L0001"
                },
                "referenceRange": [
                    {
                        "low": {
                            "value": 40,
                            "unit": "%",
                            "system": "http://unitsofmeasure.org",
                            "code": "%"
                        },
                        "high": {
                            "value": 70,
                            "unit": "%",
                            "system": "http://unitsofmeasure.org",
                            "code": "%"
                        },
                        "text": "40,0 - 70,0 %"
                    }
                ]
            }
        },
        {
            "fullUrl": "Practitioner/e1qyn2AqZhqVF6QlzZhZ1FP.tQ3ukKIHxepgJOmKzn803",
            "resource": {
                "resourceType": "Practitioner",
                "id": "e1qyn2AqZhqVF6QlzZhZ1FP.tQ3ukKIHxepgJOmKzn803",
                "meta": {
                    "profile": [
                        "https://www.ehealth.fgov.be/standards/fhir/core/StructureDefinition/be-practitioner"
                    ]
                },
                "text": {
                    "status": "empty",
                    "div": "<div xmlns=\"http://www.w3.org/1999/xhtml\">Demet YUKSEL</div>"
                },
                "identifier": [
                    {
                        "use": "official",
                        "system": "https://www.ehealth.fgov.be/standards/fhir/core/NamingSystem/nihdi",
                        "value": "18585693"
                    }
                ],
                "active": true,
                "name": [
                    {
                        "use": "official",
                        "family": "YUKSEL",
                        "given": [
                            "Demet"
                        ]
                    }
                ],
                "gender": "female",
                "birthDate": "1966-06-25"
            }
        },
        {
            "fullUrl": "Organization/ff-9bqj.Y5xXc9N-kmcnaWQ4",
            "resource": {
                "resourceType": "Organization",
                "id": "ff-9bqj.Y5xXc9N-kmcnaWQ4",
                "meta": {
                    "profile": [
                        "https://www.ehealth.fgov.be/standards/fhir/core/StructureDefinition/be-organization"
                    ]
                },
                "text": {
                    "status": "empty",
                    "div": "<div xmlns=\"http://www.w3.org/1999/xhtml\">LABOS CLINIQUES</div>"
                },
                "identifier": [
                    {
                        "system": "https://www.ehealth.fgov.be/standards/fhir/core/NamingSystem/nihdi",
                        "value": "82675078998"
                    }
                ],
                "active": true,
                "name": "LABOS CLINIQUES",
                "alias": [
                    "Labos Cliniques"
                ],
                "address": [
                    {
                        "use": "work",
                        "line": [
                            "Avenue Hippocrate, 10"
                        ],
                        "city": "Woluwé-Saint-Lambert",
                        "postalCode": "1200",
                        "country": "BE",
                        "period": {
                            "start": "2021-10-11T11:02:00Z"
                        }
                    }
                ],
                "contact": [
                    {
                        "name": {
                            "text": "GRUSON, Damien, Chef(fe) de département"
                        }
                    }
                ]
            }
        }
    ]
}